subNum	 trial	 picNum	 startRate	 rating	 RT
1	 1	 62	 4	 7	 14.128
1	 2	 98	 3	 5	 7.234
1	 3	 68	 6	 8	 3.153
1	 4	 22	 3	 9	 2.569
1	 5	 70	 9	 7	 2.569
1	 6	 24	 4	 8	 5.252
1	 7	 47	 8	 9	 4.901
1	 8	 33	 1	 8	 3.736
1	 9	 58	 10	 9	 7.469
1	 10	 105	 7	 8	 2.102
1	 11	 82	 6	 5	 5.836
1	 12	 73	 5	 6	 4.319
1	 13	 89	 6	 2	 3.736
1	 14	 27	 3	 4	 3.036
1	 15	 38	 1	 7	 8.519
1	 16	 31	 2	 6	 28.119
1	 17	 55	 3	 7	 6.652
1	 18	 29	 6	 5	 8.052
1	 19	 57	 3	 5	 3.501
1	 20	 83	 5	 4	 13.302
1	 21	 94	 1	 4	 3.150
1	 22	 66	 8	 5	 3.736
1	 23	 20	 5	 4	 9.336
1	 24	 17	 7	 6	 1.403
1	 25	 35	 9	 5	 2.335
1	 26	 80	 10	 4	 8.869
1	 27	 84	 0	 3	 2.219
1	 28	 53	 1	 7	 3.152
1	 29	 14	 4	 6	 1.636
1	 30	 16	 8	 3	 5.486
1	 31	 91	 2	 4	 3.734
1	 32	 43	 8	 8	 3.153
1	 33	 39	 3	 3	 4.319
1	 34	 1	 3	 7	 8.402
1	 35	 78	 4	 3	 9.686
1	 36	 42	 10	 4	 2.569
1	 37	 37	 4	 1	 5.486
1	 38	 103	 5	 3	 4.785
1	 39	 30	 0	 2	 3.269
1	 40	 18	 3	 4	 2.335
1	 41	 40	 8	 2	 4.202
1	 42	 95	 7	 4	 2.103
1	 43	 50	 10	 2	 3.853
1	 44	 26	 5	 4	 4.319
1	 45	 28	 0	 1	 4.786
1	 46	 51	 4	 5	 4.086
1	 47	 85	 0	 6	 5.369
1	 48	 3	 7	 7	 2.802
1	 49	 75	 8	 7	 2.919
1	 50	 34	 8	 6	 5.019
1	 51	 72	 10	 7	 2.803
1	 52	 60	 4	 1	 2.686
1	 53	 61	 7	 6	 5.486
1	 54	 101	 9	 4	 10.036
1	 55	 44	 7	 8	 5.369
1	 56	 2	 3	 4	 2.919
1	 57	 87	 5	 7	 3.036
1	 58	 56	 8	 4	 3.619
1	 59	 54	 1	 4	 4.786
1	 60	 71	 3	 3	 5.952
1	 61	 46	 7	 6	 5.953
1	 62	 7	 3	 5	 5.019
1	 63	 48	 5	 3	 7.236
1	 64	 8	 10	 3	 14.002
1	 65	 77	 7	 2	 3.619
1	 66	 4	 7	 7	 3.386
1	 67	 100	 2	 6	 10.502
1	 68	 32	 9	 4	 3.502
1	 69	 107	 10	 5	 10.618
1	 70	 79	 5	 6	 4.436
1	 71	 11	 5	 5	 7.468
1	 72	 41	 3	 3	 11.551
1	 73	 93	 7	 6	 2.918
1	 74	 63	 1	 8	 3.500
1	 75	 9	 6	 3	 3.384
1	 76	 97	 6	 7	 7.934
1	 77	 5	 3	 7	 3.269
1	 78	 106	 5	 6	 6.300
1	 79	 69	 10	 6	 4.317
1	 80	 92	 3	 7	 1.869
1	 81	 15	 8	 7	 3.035
1	 82	 67	 9	 3	 7.235
1	 83	 90	 10	 8	 3.619
1	 84	 23	 0	 8	 2.686
1	 85	 13	 7	 3	 8.985
1	 86	 6	 5	 3	 3.736
1	 87	 59	 1	 1	 3.267
1	 88	 10	 4	 2	 2.684
1	 89	 81	 9	 3	 3.386
1	 90	 49	 1	 6	 3.267
1	 91	 12	 0	 4	 3.619
1	 92	 74	 9	 4	 3.736
1	 93	 36	 9	 7	 3.619
1	 94	 65	 9	 6	 3.619
1	 95	 86	 8	 7	 2.103
1	 96	 96	 0	 7	 8.285
1	 97	 64	 6	 7	 4.785
1	 98	 88	 8	 2	 2.103
1	 99	 102	 7	 7	 3.152
1	 100	 76	 6	 6	 2.686
1	 101	 52	 2	 4	 4.785
1	 102	 99	 7	 6	 7.702
1	 103	 21	 7	 6	 2.335
1	 104	 19	 6	 4	 1.869
1	 105	 104	 8	 5	 3.619
1	 106	 45	 3	 9	 4.552
1	 107	 25	 3	 3	 6.069
