subNum	 trial	 picNum	 startRate	 rating	 RT
3	 1	 87	 7	 6	 14.716
3	 2	 93	 8	 7	 2.803
3	 3	 11	 0	 4	 6.069
3	 4	 94	 10	 9	 2.919
3	 5	 63	 9	 7	 2.684
3	 6	 9	 10	 4	 4.903
3	 7	 32	 4	 5	 1.635
3	 8	 54	 10	 4	 3.386
3	 9	 102	 8	 3	 4.319
3	 10	 106	 9	 8	 3.269
3	 11	 16	 4	 9	 3.036
3	 12	 107	 8	 10	 2.219
3	 13	 101	 10	 8	 2.686
3	 14	 48	 2	 3	 4.552
3	 15	 85	 1	 5	 3.852
3	 16	 14	 6	 7	 3.036
3	 17	 43	 1	 2	 2.919
3	 18	 95	 6	 4	 3.851
3	 19	 82	 5	 3	 3.503
3	 20	 104	 0	 4	 2.685
3	 21	 67	 1	 3	 8.752
3	 22	 4	 2	 2	 1.520
3	 23	 91	 0	 6	 2.570
3	 24	 98	 10	 5	 3.969
3	 25	 68	 5	 3	 3.969
3	 26	 79	 9	 6	 5.018
3	 27	 74	 1	 5	 3.386
3	 28	 42	 4	 6	 4.319
3	 29	 66	 4	 5	 3.736
3	 30	 20	 1	 2	 3.386
3	 31	 72	 10	 8	 3.035
3	 32	 2	 0	 5	 3.852
3	 33	 31	 3	 4	 1.985
3	 34	 5	 0	 8	 6.885
3	 35	 8	 1	 6	 4.553
3	 36	 88	 8	 4	 6.652
3	 37	 70	 4	 4	 3.269
3	 38	 35	 3	 3	 3.619
3	 39	 100	 2	 3	 1.868
3	 40	 3	 2	 6	 3.152
3	 41	 44	 6	 4	 3.851
3	 42	 41	 0	 5	 6.419
3	 43	 80	 8	 3	 3.502
3	 44	 84	 4	 0	 4.669
3	 45	 21	 3	 1	 5.252
3	 46	 49	 5	 4	 8.985
3	 47	 45	 8	 4	 4.552
3	 48	 64	 4	 7	 4.084
3	 49	 73	 5	 7	 3.969
3	 50	 77	 10	 4	 2.569
3	 51	 30	 6	 3	 6.419
3	 52	 69	 6	 5	 4.319
3	 53	 65	 3	 4	 6.419
3	 54	 18	 2	 6	 3.386
3	 55	 10	 2	 4	 3.969
3	 56	 50	 1	 2	 3.386
3	 57	 105	 4	 9	 4.669
3	 58	 37	 10	 7	 2.686
3	 59	 60	 2	 1	 2.219
3	 60	 23	 10	 7	 5.602
3	 61	 75	 1	 5	 3.386
3	 62	 27	 4	 4	 3.151
3	 63	 51	 2	 3	 3.853
3	 64	 71	 7	 3	 3.969
3	 65	 92	 1	 5	 2.919
3	 66	 103	 3	 6	 9.336
3	 67	 55	 5	 6	 3.269
3	 68	 13	 2	 3	 2.568
3	 69	 15	 0	 3	 3.619
3	 70	 28	 8	 9	 3.151
3	 71	 90	 6	 4	 8.052
3	 72	 26	 5	 5	 14.469
3	 73	 86	 6	 7	 1.402
3	 74	 24	 2	 5	 3.036
3	 75	 97	 6	 5	 4.552
3	 76	 38	 4	 2	 6.418
3	 77	 22	 10	 8	 3.735
3	 78	 25	 9	 9	 3.152
3	 79	 62	 8	 5	 2.452
3	 80	 47	 2	 4	 3.153
3	 81	 39	 7	 4	 4.551
3	 82	 89	 7	 2	 4.086
3	 83	 59	 7	 3	 3.502
3	 84	 56	 8	 1	 2.452
3	 85	 96	 9	 7	 3.736
3	 86	 33	 3	 6	 4.202
3	 87	 78	 2	 2	 2.335
3	 88	 76	 8	 7	 7.702
3	 89	 40	 5	 5	 3.035
3	 90	 57	 6	 2	 3.969
3	 91	 7	 9	 6	 4.786
3	 92	 6	 6	 7	 3.502
3	 93	 53	 2	 8	 3.851
3	 94	 81	 0	 5	 3.736
3	 95	 99	 1	 7	 4.552
3	 96	 12	 7	 6	 2.219
3	 97	 58	 5	 7	 2.335
3	 98	 46	 7	 4	 2.335
3	 99	 1	 0	 3	 2.101
3	 100	 36	 1	 10	 5.367
3	 101	 17	 8	 7	 2.102
3	 102	 83	 1	 4	 5.952
3	 103	 34	 5	 7	 2.219
3	 104	 52	 7	 6	 5.019
3	 105	 19	 4	 2	 2.103
3	 106	 61	 9	 4	 3.619
3	 107	 29	 1	 8	 4.086
