subNum	 trial	 picNum	 startRate	 rating	 RT
4	 1	 87	 7	 5	 4.801
4	 2	 93	 8	 4	 5.369
4	 3	 11	 0	 0	 6.069
4	 4	 94	 10	 0	 3.968
4	 5	 63	 9	 8	 3.736
4	 6	 9	 10	 0	 6.069
4	 7	 32	 4	 2	 4.669
4	 8	 54	 10	 7	 4.086
4	 9	 102	 8	 6	 6.186
4	 10	 106	 9	 3	 3.618
4	 11	 16	 4	 2	 2.569
4	 12	 107	 8	 -1	 5.951
4	 13	 101	 10	 -1	 3.270
4	 14	 48	 2	 9	 7.467
4	 15	 85	 1	 -1	 5.020
4	 16	 14	 6	 4	 9.335
4	 17	 43	 1	 9	 4.786
4	 18	 95	 6	 6	 3.736
4	 19	 82	 5	 5	 2.919
4	 20	 104	 0	 4	 10.035
4	 21	 67	 1	 4	 14.935
4	 22	 4	 2	 4	 3.735
4	 23	 91	 0	 -1	 6.069
4	 24	 98	 10	 -1	 2.335
4	 25	 68	 5	 -1	 1.753
4	 26	 79	 9	 8	 2.686
4	 27	 74	 1	 9	 3.736
4	 28	 42	 4	 0	 2.335
4	 29	 66	 4	 1	 2.919
4	 30	 20	 1	 4	 3.619
4	 31	 72	 10	 -1	 2.569
4	 32	 2	 0	 7	 3.736
4	 33	 31	 3	 3	 5.135
4	 34	 5	 0	 7	 3.035
4	 35	 8	 1	 5	 3.035
4	 36	 88	 8	 8	 3.036
4	 37	 70	 4	 7	 2.336
4	 38	 35	 3	 6	 2.918
4	 39	 100	 2	 10	 2.686
4	 40	 3	 2	 8	 5.252
4	 41	 44	 6	 8	 2.102
4	 42	 41	 0	 2	 3.036
4	 43	 80	 8	 8	 9.102
4	 44	 84	 4	 9	 6.769
4	 45	 21	 3	 8	 9.336
4	 46	 49	 5	 9	 3.969
4	 47	 45	 8	 5	 6.069
4	 48	 64	 4	 3	 3.502
4	 49	 73	 5	 7	 2.452
4	 50	 77	 10	 4	 3.619
4	 51	 30	 6	 9	 2.802
4	 52	 69	 6	 5	 3.269
4	 53	 65	 3	 9	 5.136
4	 54	 18	 2	 0	 3.269
4	 55	 10	 2	 10	 5.136
4	 56	 50	 1	 2	 5.952
4	 57	 105	 4	 2	 8.286
4	 58	 37	 10	 9	 5.369
4	 59	 60	 2	 9	 7.936
4	 60	 23	 10	 8	 1.984
4	 61	 75	 1	 9	 3.969
4	 62	 27	 4	 6	 2.802
4	 63	 51	 2	 0	 1.869
4	 64	 71	 7	 1	 4.203
4	 65	 92	 1	 1	 2.336
4	 66	 103	 3	 4	 1.985
4	 67	 55	 5	 2	 1.985
4	 68	 13	 2	 3	 2.102
4	 69	 15	 0	 4	 3.852
4	 70	 28	 8	 5	 3.735
4	 71	 90	 6	 3	 11.436
4	 72	 26	 5	 6	 5.486
4	 73	 86	 6	 4	 7.352
4	 74	 24	 2	 6	 3.269
4	 75	 97	 6	 4	 3.153
4	 76	 38	 4	 8	 3.152
4	 77	 22	 10	 9	 3.268
4	 78	 25	 9	 4	 3.736
4	 79	 62	 8	 9	 2.335
4	 80	 47	 2	 10	 3.269
4	 81	 39	 7	 2	 7.819
4	 82	 89	 7	 7	 3.386
4	 83	 59	 7	 6	 2.453
4	 84	 56	 8	 9	 4.319
4	 85	 96	 9	 -1	 6.769
4	 86	 33	 3	 -1	 1.286
4	 87	 78	 2	 2	 3.501
4	 88	 76	 8	 -1	 1.986
4	 89	 40	 5	 -1	 1.870
4	 90	 57	 6	 8	 2.919
4	 91	 7	 9	 7	 2.569
4	 92	 6	 6	 8	 4.201
4	 93	 53	 2	 6	 6.885
4	 94	 81	 0	 3	 2.569
4	 95	 99	 1	 2	 3.969
4	 96	 12	 7	 1	 3.968
4	 97	 58	 5	 10	 2.336
4	 98	 46	 7	 5	 5.719
4	 99	 1	 0	 6	 3.851
4	 100	 36	 1	 1	 1.986
4	 101	 17	 8	 0	 5.486
4	 102	 83	 1	 8	 5.486
4	 103	 34	 5	 3	 2.803
4	 104	 52	 7	 7	 4.786
4	 105	 19	 4	 7	 4.785
4	 106	 61	 9	 6	 3.968
4	 107	 29	 1	 8	 6.302
