subNum	 trial	 picNum	 startRate	 rating	 RT
2	 1	 87	 7	 4	 22.884
2	 2	 93	 8	 8	 2.685
2	 3	 11	 0	 2	 6.885
2	 4	 94	 10	 7	 4.669
2	 5	 63	 9	 8	 8.869
2	 6	 9	 10	 5	 5.486
2	 7	 32	 4	 3	 5.952
2	 8	 54	 10	 1	 8.636
2	 9	 102	 8	 8	 1.403
2	 10	 106	 9	 9	 3.385
2	 11	 16	 4	 8	 8.869
2	 12	 107	 8	 8	 2.685
2	 13	 101	 10	 6	 7.236
2	 14	 48	 2	 0	 3.736
2	 15	 85	 1	 1	 3.968
2	 16	 14	 6	 2	 3.269
2	 17	 43	 1	 1	 3.853
2	 18	 95	 6	 8	 3.852
2	 19	 82	 5	 2	 2.919
2	 20	 104	 0	 3	 4.902
2	 21	 67	 1	 1	 2.685
2	 22	 4	 2	 4	 5.369
2	 23	 91	 0	 2	 10.502
2	 24	 98	 10	 2	 5.251
2	 25	 68	 5	 1	 6.302
2	 26	 79	 9	 6	 10.736
2	 27	 74	 1	 4	 5.136
2	 28	 42	 4	 0	 2.802
2	 29	 66	 4	 3	 7.469
2	 30	 20	 1	 0	 2.919
2	 31	 72	 10	 2	 5.136
2	 32	 2	 0	 0	 2.686
2	 33	 31	 3	 3	 3.736
2	 34	 5	 0	 10	 5.486
2	 35	 8	 1	 8	 4.086
2	 36	 88	 8	 10	 7.236
2	 37	 70	 4	 0	 3.034
2	 38	 35	 3	 3	 4.203
2	 39	 100	 2	 2	 1.519
2	 40	 3	 2	 10	 3.035
2	 41	 44	 6	 2	 3.386
2	 42	 41	 0	 3	 7.701
2	 43	 80	 8	 3	 5.952
2	 44	 84	 4	 9	 3.502
2	 45	 21	 3	 10	 3.619
2	 46	 49	 5	 0	 4.669
2	 47	 45	 8	 8	 2.102
2	 48	 64	 4	 6	 3.736
2	 49	 73	 5	 2	 5.719
2	 50	 77	 10	 0	 3.853
2	 51	 30	 6	 1	 3.153
2	 52	 69	 6	 9	 4.319
2	 53	 65	 3	 10	 4.669
2	 54	 18	 2	 3	 3.852
2	 55	 10	 2	 10	 2.686
2	 56	 50	 1	 10	 3.736
2	 57	 105	 4	 5	 3.967
2	 58	 37	 10	 10	 4.786
2	 59	 60	 2	 10	 3.852
2	 60	 23	 10	 3	 5.602
2	 61	 75	 1	 3	 3.152
2	 62	 27	 4	 10	 2.569
2	 63	 51	 2	 1	 6.536
2	 64	 71	 7	 0	 4.086
2	 65	 92	 1	 3	 7.468
2	 66	 103	 3	 10	 3.619
2	 67	 55	 5	 9	 3.852
2	 68	 13	 2	 1	 3.969
2	 69	 15	 0	 0	 1.636
2	 70	 28	 8	 10	 2.335
2	 71	 90	 6	 1	 4.319
2	 72	 26	 5	 0	 3.735
2	 73	 86	 6	 10	 3.736
2	 74	 24	 2	 10	 4.318
2	 75	 97	 6	 8	 3.269
2	 76	 38	 4	 1	 3.036
2	 77	 22	 10	 2	 5.602
2	 78	 25	 9	 1	 7.001
2	 79	 62	 8	 0	 6.768
2	 80	 47	 2	 2	 1.986
2	 81	 39	 7	 2	 3.503
2	 82	 89	 7	 10	 3.852
2	 83	 59	 7	 9	 4.319
2	 84	 56	 8	 10	 2.219
2	 85	 96	 9	 7	 9.452
2	 86	 33	 3	 10	 3.502
2	 87	 78	 2	 9	 7.584
2	 88	 76	 8	 10	 2.452
2	 89	 40	 5	 1	 4.086
2	 90	 57	 6	 10	 2.219
2	 91	 7	 9	 1	 2.453
2	 92	 6	 6	 10	 3.036
2	 93	 53	 2	 2	 4.903
2	 94	 81	 0	 3	 4.434
2	 95	 99	 1	 1	 1.286
2	 96	 12	 7	 0	 4.669
2	 97	 58	 5	 5	 3.386
2	 98	 46	 7	 3	 2.802
2	 99	 1	 0	 0	 1.286
2	 100	 36	 1	 9	 2.801
2	 101	 17	 8	 2	 4.553
2	 102	 83	 1	 1	 2.452
2	 103	 34	 5	 2	 2.919
2	 104	 52	 7	 0	 3.619
2	 105	 19	 4	 3	 2.335
2	 106	 61	 9	 9	 1.869
2	 107	 29	 1	 3	 2.336
