subNum	 trial	 picNum	 startRate	 rating	 RT
4	 1	 32	 0	 4	 6.302
4	 2	 28	 7	 9	 2.452
4	 3	 46	 7	 10	 2.686
4	 4	 24	 9	 8	 1.869
4	 5	 2	 5	 6	 2.219
4	 6	 67	 9	 7	 3.619
4	 7	 13	 0	 10	 3.852
4	 8	 82	 1	 -1	 2.920
4	 9	 38	 6	 6	 4.902
4	 10	 30	 5	 9	 2.802
4	 11	 75	 1	 9	 3.619
4	 12	 76	 3	 5	 7.936
4	 13	 16	 3	 8	 4.319
4	 14	 7	 3	 0	 3.969
4	 15	 17	 6	 4	 3.035
4	 16	 64	 8	 3	 8.636
4	 17	 86	 9	 10	 3.852
4	 18	 51	 8	 2	 3.969
4	 19	 15	 0	 6	 4.202
4	 20	 72	 1	 1	 4.319
4	 21	 93	 10	 7	 3.503
4	 22	 22	 10	 7	 3.852
4	 23	 90	 9	 4	 3.152
4	 24	 21	 2	 6	 8.402
4	 25	 85	 6	 2	 2.803
4	 26	 88	 3	 -1	 1.985
4	 27	 53	 6	 -1	 1.753
4	 28	 49	 9	 2	 6.652
4	 29	 91	 6	 4	 2.569
4	 30	 4	 1	 1	 0.014
4	 31	 50	 4	 8	 4.436
4	 32	 63	 9	 3	 6.769
4	 33	 74	 4	 9	 3.385
4	 34	 23	 4	 7	 3.619
4	 35	 1	 1	 2	 3.385
4	 36	 11	 3	 4	 2.218
4	 37	 78	 1	 6	 3.619
4	 38	 99	 0	 -1	 3.620
4	 39	 36	 2	 7	 4.551
4	 40	 100	 2	 -1	 2.686
4	 41	 29	 8	 -1	 2.336
4	 42	 10	 0	 7	 3.851
4	 43	 35	 5	 8	 3.619
4	 44	 58	 3	 -1	 2.219
4	 45	 65	 6	 -1	 2.453
4	 46	 55	 2	 0	 6.534
4	 47	 27	 5	 8	 2.918
4	 48	 14	 2	 1	 2.451
4	 49	 12	 6	 0	 3.968
4	 50	 9	 7	 3	 5.485
4	 51	 71	 5	 7	 6.419
4	 52	 47	 4	 10	 2.568
4	 53	 6	 0	 -1	 2.103
4	 54	 70	 4	 4	 4.436
4	 55	 18	 1	 -1	 6.535
4	 56	 83	 6	 3	 6.302
4	 57	 52	 9	 -1	 3.969
4	 58	 57	 9	 5	 4.902
4	 59	 20	 0	 4	 9.336
4	 60	 79	 1	 3	 2.569
4	 61	 54	 0	 7	 3.851
4	 62	 59	 5	 1	 5.019
4	 63	 39	 5	 7	 2.919
4	 64	 73	 8	 4	 2.802
4	 65	 5	 3	 2	 4.201
4	 66	 60	 7	 8	 3.386
4	 67	 89	 8	 1	 4.086
4	 68	 42	 9	 6	 3.268
4	 69	 66	 9	 2	 4.085
4	 70	 26	 8	 6	 5.369
4	 71	 62	 0	 3	 4.551
4	 72	 25	 3	 4	 7.118
4	 73	 81	 9	 6	 3.503
4	 74	 80	 8	 1	 2.569
4	 75	 98	 5	 7	 2.801
4	 76	 41	 7	 -1	 2.103
4	 77	 45	 2	 9	 3.618
4	 78	 61	 6	 2	 4.319
4	 79	 87	 6	 0	 5.018
4	 80	 3	 8	 4	 4.319
4	 81	 19	 3	 6	 3.269
4	 82	 95	 8	 4	 3.152
4	 83	 96	 2	 7	 3.502
4	 84	 43	 0	 3	 4.086
4	 85	 84	 4	 2	 2.569
4	 86	 94	 5	 4	 4.086
4	 87	 68	 0	 8	 3.502
4	 88	 34	 5	 7	 2.802
4	 89	 37	 9	 5	 4.085
4	 90	 40	 4	 7	 4.086
4	 91	 69	 1	 7	 4.202
4	 92	 48	 9	 3	 5.486
4	 93	 97	 1	 7	 4.436
4	 94	 33	 7	 3	 2.803
4	 95	 31	 3	 4	 5.718
4	 96	 92	 8	 9	 3.736
4	 97	 56	 7	 8	 2.453
4	 98	 77	 6	 6	 3.969
4	 99	 8	 9	 0	 3.969
4	 100	 44	 5	 8	 2.102
