subNum	 trial	 picNum	 startRate	 rating	 RT
2	 1	 59	 3	 5	 8.052
2	 2	 100	 1	 4	 2.803
2	 3	 6	 6	 4	 3.268
2	 4	 74	 1	 1	 2.102
2	 5	 95	 4	 5	 1.869
2	 6	 89	 2	 2	 3.036
2	 7	 17	 1	 0	 2.451
2	 8	 98	 8	 10	 7.586
2	 9	 51	 4	 -1	 4.785
2	 10	 91	 9	 9	 4.319
2	 11	 88	 5	 2	 3.036
2	 12	 42	 10	 10	 2.219
2	 13	 67	 8	 10	 2.102
2	 14	 87	 5	 5	 2.219
2	 15	 5	 6	 5	 2.803
2	 16	 13	 2	 4	 2.685
2	 17	 48	 1	 3	 6.652
2	 18	 20	 4	 0	 4.203
2	 19	 8	 8	 4	 4.319
2	 20	 79	 0	 0	 4.552
2	 21	 38	 4	 10	 1.869
2	 22	 82	 9	 7	 2.453
2	 23	 26	 10	 10	 1.519
2	 24	 71	 8	 2	 3.969
2	 25	 90	 5	 6	 2.102
2	 26	 76	 9	 6	 4.319
2	 27	 28	 8	 1	 3.269
2	 28	 43	 8	 10	 1.985
2	 29	 44	 5	 0	 2.336
2	 30	 31	 3	 10	 2.219
2	 31	 39	 5	 10	 3.152
2	 32	 14	 9	 4	 2.569
2	 33	 53	 7	 4	 3.619
2	 34	 54	 7	 10	 2.102
2	 35	 7	 2	 4	 3.619
2	 36	 68	 10	 6	 4.901
2	 37	 10	 2	 5	 2.569
2	 38	 25	 8	 10	 1.519
2	 39	 73	 6	 5	 3.735
2	 40	 61	 0	 10	 2.451
2	 41	 2	 2	 4	 3.152
2	 42	 35	 10	 3	 4.319
2	 43	 47	 6	 10	 1.635
2	 44	 19	 4	 10	 2.219
2	 45	 12	 9	 1	 2.102
2	 46	 56	 2	 10	 1.986
2	 47	 46	 8	 10	 1.753
2	 48	 84	 9	 10	 1.869
2	 49	 60	 3	 3	 5.252
2	 50	 83	 0	 10	 2.453
2	 51	 55	 2	 10	 5.252
2	 52	 3	 7	 3	 2.102
2	 53	 1	 10	 10	 1.636
2	 54	 24	 6	 10	 1.753
2	 55	 45	 1	 1	 3.619
2	 56	 75	 10	 1	 4.319
2	 57	 23	 10	 8	 2.919
2	 58	 33	 4	 1	 2.569
2	 59	 69	 8	 0	 2.336
2	 60	 34	 10	 10	 1.986
2	 61	 37	 4	 7	 5.252
2	 62	 21	 7	 10	 1.635
2	 63	 49	 8	 1	 4.086
2	 64	 93	 1	 1	 1.984
2	 65	 92	 0	 2	 1.402
2	 66	 50	 7	 10	 1.636
2	 67	 70	 2	 0	 1.869
2	 68	 29	 7	 0	 2.453
2	 69	 97	 0	 10	 2.219
2	 70	 65	 8	 3	 2.569
2	 71	 27	 7	 10	 1.519
2	 72	 16	 3	 1	 2.334
2	 73	 62	 6	 10	 1.402
2	 74	 32	 2	 10	 2.451
2	 75	 11	 4	 2	 2.103
2	 76	 22	 10	 1	 2.452
2	 77	 9	 10	 10	 4.085
2	 78	 72	 9	 1	 3.152
2	 79	 78	 6	 -1	 2.570
2	 80	 80	 6	 7	 4.786
2	 81	 30	 5	 0	 2.569
2	 82	 94	 5	 6	 3.268
2	 83	 63	 9	 10	 1.869
2	 84	 4	 7	 4	 2.336
2	 85	 41	 6	 10	 2.685
2	 86	 58	 1	 2	 3.035
2	 87	 66	 9	 3	 4.085
2	 88	 52	 8	 3	 2.568
2	 89	 81	 7	 7	 1.869
2	 90	 18	 1	 0	 2.101
2	 91	 99	 0	 0	 1.286
2	 92	 86	 7	 0	 2.451
2	 93	 40	 3	 10	 2.802
2	 94	 64	 9	 10	 1.636
2	 95	 36	 10	 2	 3.268
2	 96	 15	 7	 10	 2.219
2	 97	 57	 5	 0	 2.802
2	 98	 85	 3	 10	 5.836
2	 99	 77	 8	 0	 2.686
2	 100	 96	 6	 10	 2.569
