subNum	 trial	 picNum	 startRate	 rating	 RT
1	 1	 4	 5	 3	 8.634
1	 2	 6	 7	 5	 5.369
1	 3	 44	 2	 8	 4.435
1	 4	 64	 9	 7	 10.385
1	 5	 21	 4	 3	 2.102
1	 6	 2	 0	 2	 4.436
1	 7	 59	 0	 4	 5.136
1	 8	 15	 7	 6	 6.069
1	 9	 47	 6	 4	 2.686
1	 10	 89	 7	 6	 5.836
1	 11	 40	 7	 7	 4.086
1	 12	 81	 4	 5	 5.602
1	 13	 35	 10	 6	 6.536
1	 14	 82	 8	 4	 6.768
1	 15	 27	 7	 6	 3.853
1	 16	 10	 6	 3	 2.219
1	 17	 36	 10	 3	 2.919
1	 18	 31	 10	 7	 3.386
1	 19	 98	 2	 4	 4.669
1	 20	 97	 9	 5	 3.386
1	 21	 20	 1	 2	 5.953
1	 22	 90	 9	 3	 3.268
1	 23	 74	 7	 4	 5.251
1	 24	 92	 9	 7	 7.585
1	 25	 57	 3	 3	 2.919
1	 26	 25	 1	 8	 5.019
1	 27	 32	 7	 8	 2.103
1	 28	 65	 5	 6	 6.068
1	 29	 58	 2	 6	 3.619
1	 30	 50	 9	 7	 2.102
1	 31	 75	 10	 3	 2.453
1	 32	 11	 0	 2	 7.352
1	 33	 18	 10	 7	 2.919
1	 34	 28	 6	 6	 1.402
1	 35	 5	 0	 1	 6.302
1	 36	 67	 1	 4	 2.568
1	 37	 22	 9	 10	 5.369
1	 38	 53	 5	 6	 6.302
1	 39	 83	 10	 8	 4.786
1	 40	 19	 10	 7	 2.686
1	 41	 68	 1	 8	 2.801
1	 42	 42	 5	 6	 4.202
1	 43	 33	 7	 7	 2.569
1	 44	 77	 1	 3	 5.019
1	 45	 48	 2	 2	 5.018
1	 46	 41	 9	 3	 7.703
1	 47	 79	 1	 7	 4.435
1	 48	 8	 9	 2	 2.920
1	 49	 7	 0	 2	 2.453
1	 50	 9	 6	 3	 3.501
1	 51	 61	 5	 4	 5.952
1	 52	 96	 6	 5	 6.769
1	 53	 52	 3	 6	 2.803
1	 54	 34	 3	 7	 3.386
1	 55	 1	 0	 8	 3.386
1	 56	 84	 3	 6	 2.686
1	 57	 95	 2	 4	 3.386
1	 58	 99	 3	 7	 2.103
1	 59	 88	 6	 6	 8.401
1	 60	 13	 7	 3	 2.569
1	 61	 49	 3	 4	 3.619
1	 62	 45	 9	 9	 6.653
1	 63	 80	 7	 4	 2.919
1	 64	 26	 0	 4	 4.902
1	 65	 85	 0	 3	 2.102
1	 66	 56	 8	 2	 2.103
1	 67	 72	 5	 6	 4.319
1	 68	 66	 4	 6	 3.152
1	 69	 94	 10	 3	 3.036
1	 70	 73	 7	 8	 2.919
1	 71	 39	 2	 6	 5.252
1	 72	 70	 0	 9	 4.086
1	 73	 93	 7	 8	 1.635
1	 74	 17	 9	 6	 1.753
1	 75	 86	 5	 3	 4.902
1	 76	 24	 8	 4	 3.035
1	 77	 12	 4	 2	 2.685
1	 78	 37	 4	 5	 6.536
1	 79	 69	 7	 8	 8.519
1	 80	 87	 9	 7	 4.669
1	 81	 46	 5	 6	 2.802
1	 82	 29	 0	 1	 3.502
1	 83	 71	 2	 5	 3.385
1	 84	 14	 8	 1	 7.352
1	 85	 43	 9	 2	 4.435
1	 86	 51	 4	 4	 2.336
1	 87	 78	 5	 6	 3.735
1	 88	 63	 4	 5	 4.786
1	 89	 16	 9	 5	 4.086
1	 90	 91	 0	 7	 3.502
1	 91	 54	 4	 3	 3.269
1	 92	 62	 5	 6	 2.919
1	 93	 30	 8	 1	 4.086
1	 94	 23	 9	 3	 3.151
1	 95	 3	 0	 2	 3.386
1	 96	 38	 1	 8	 2.569
1	 97	 76	 3	 1	 3.152
1	 98	 60	 6	 7	 1.636
1	 99	 100	 8	 6	 7.469
1	 100	 55	 0	 3	 3.969
