subNum	 trial	 picNum	 startRate	 rating	 RT
3	 1	 59	 3	 2	 5.835
3	 2	 100	 1	 2	 2.802
3	 3	 6	 6	 3	 4.436
3	 4	 74	 1	 9	 3.152
3	 5	 95	 4	 6	 5.602
3	 6	 89	 2	 7	 3.269
3	 7	 17	 1	 7	 4.902
3	 8	 98	 8	 7	 4.086
3	 9	 51	 4	 9	 3.036
3	 10	 91	 9	 4	 2.686
3	 11	 88	 5	 4	 5.602
3	 12	 42	 10	 9	 2.802
3	 13	 67	 8	 4	 2.686
3	 14	 87	 5	 8	 1.869
3	 15	 5	 6	 1	 4.903
3	 16	 13	 2	 6	 2.335
3	 17	 48	 1	 2	 2.919
3	 18	 20	 4	 4	 5.486
3	 19	 8	 8	 1	 3.035
3	 20	 79	 0	 5	 5.485
3	 21	 38	 4	 9	 3.851
3	 22	 82	 9	 7	 3.035
3	 23	 26	 10	 8	 4.669
3	 24	 71	 8	 2	 4.669
3	 25	 90	 5	 2	 3.735
3	 26	 76	 9	 8	 2.919
3	 27	 28	 8	 7	 6.185
3	 28	 43	 8	 7	 3.385
3	 29	 44	 5	 3	 4.085
3	 30	 31	 3	 9	 5.018
3	 31	 39	 5	 10	 4.318
3	 32	 14	 9	 8	 3.269
3	 33	 53	 7	 3	 3.735
3	 34	 54	 7	 8	 2.219
3	 35	 7	 2	 1	 2.803
3	 36	 68	 10	 6	 3.619
3	 37	 10	 2	 6	 2.802
3	 38	 25	 8	 7	 3.035
3	 39	 73	 6	 5	 2.803
3	 40	 61	 0	 4	 4.668
3	 41	 2	 2	 1	 1.753
3	 42	 35	 10	 2	 4.201
3	 43	 47	 6	 3	 3.035
3	 44	 19	 4	 4	 2.103
3	 45	 12	 9	 4	 4.201
3	 46	 56	 2	 7	 4.319
3	 47	 46	 8	 9	 2.686
3	 48	 84	 9	 7	 3.735
3	 49	 60	 3	 7	 3.619
3	 50	 83	 0	 8	 6.301
3	 51	 55	 2	 2	 7.469
3	 52	 3	 7	 1	 2.336
3	 53	 1	 10	 4	 2.919
3	 54	 24	 6	 9	 5.368
3	 55	 45	 1	 8	 7.002
3	 56	 75	 10	 8	 2.219
3	 57	 23	 10	 9	 2.219
3	 58	 33	 4	 2	 3.736
3	 59	 69	 8	 3	 2.801
3	 60	 34	 10	 3	 2.801
3	 61	 37	 4	 3	 4.785
3	 62	 21	 7	 8	 2.336
3	 63	 49	 8	 7	 7.236
3	 64	 93	 1	 4	 3.269
3	 65	 92	 0	 4	 2.336
3	 66	 50	 7	 7	 4.319
3	 67	 70	 2	 3	 2.452
3	 68	 29	 7	 3	 5.952
3	 69	 97	 0	 6	 4.669
3	 70	 65	 8	 3	 5.719
3	 71	 27	 7	 4	 8.403
3	 72	 16	 3	 6	 5.835
3	 73	 62	 6	 5	 2.569
3	 74	 32	 2	 9	 3.502
3	 75	 11	 4	 7	 3.851
3	 76	 22	 10	 3	 4.086
3	 77	 9	 10	 3	 4.201
3	 78	 72	 9	 4	 2.918
3	 79	 78	 6	 6	 3.619
3	 80	 80	 6	 4	 3.502
3	 81	 30	 5	 5	 5.601
3	 82	 94	 5	 5	 3.853
3	 83	 63	 9	 4	 7.002
3	 84	 4	 7	 2	 3.036
3	 85	 41	 6	 4	 6.651
3	 86	 58	 1	 1	 2.801
3	 87	 66	 9	 4	 3.502
3	 88	 52	 8	 3	 7.585
3	 89	 81	 7	 6	 1.986
3	 90	 18	 1	 6	 2.452
3	 91	 99	 0	 1	 3.503
3	 92	 86	 7	 2	 6.419
3	 93	 40	 3	 10	 3.852
3	 94	 64	 9	 6	 5.835
3	 95	 36	 10	 3	 2.919
3	 96	 15	 7	 7	 3.036
3	 97	 57	 5	 8	 10.619
3	 98	 85	 3	 6	 16.569
3	 99	 77	 8	 4	 3.503
3	 100	 96	 6	 6	 1.869
